File: plot_datasets/graph-14_Nov/UV-Vis_SentiGlass/SentiGlass_14Nov_HA3_01.txt
Batch	SentiGlass_14Nov015.sre
Evolution 600 288002	100%T Baseline Correction
Sample001 Cycle01	14/11/2022 11:29:48AM
nm	A
200.00	XXX.XXX
201.00	XXX.XXX
202.00	XXX.XXX
203.00	XXX.XXX
204.00	XXX.XXX
205.00	XXX.XXX
206.00	XXX.XXX
207.00	XXX.XXX
208.00	XXX.XXX
209.00	XXX.XXX
210.00	XXX.XXX
211.00	XXX.XXX
212.00	XXX.XXX
213.00	XXX.XXX
214.00	XXX.XXX
215.00	XXX.XXX
216.00	XXX.XXX
217.00	XXX.XXX
218.00	XXX.XXX
219.00	XXX.XXX
220.00	XXX.XXX
221.00	XXX.XXX
222.00	XXX.XXX
223.00	XXX.XXX
224.00	XXX.XXX
225.00	XXX.XXX
226.00	XXX.XXX
227.00	XXX.XXX
228.00	XXX.XXX
229.00	XXX.XXX
230.00	XXX.XXX
231.00	XXX.XXX
232.00	XXX.XXX
233.00	XXX.XXX
234.00	XXX.XXX
235.00	XXX.XXX
236.00	XXX.XXX
237.00	XXX.XXX
238.00	XXX.XXX
239.00	XXX.XXX
240.00	XXX.XXX
241.00	XXX.XXX
242.00	XXX.XXX
243.00	XXX.XXX
244.00	XXX.XXX
245.00	XXX.XXX
246.00	XXX.XXX
247.00	XXX.XXX
248.00	XXX.XXX
249.00	XXX.XXX
250.00	XXX.XXX
251.00	XXX.XXX
252.00	XXX.XXX
253.00	XXX.XXX
254.00	XXX.XXX
255.00	XXX.XXX
256.00	XXX.XXX
257.00	XXX.XXX
258.00	XXX.XXX
259.00	XXX.XXX
260.00	XXX.XXX
261.00	XXX.XXX
262.00	XXX.XXX
263.00	XXX.XXX
264.00	XXX.XXX
265.00	XXX.XXX
266.00	XXX.XXX
267.00	XXX.XXX
268.00	XXX.XXX
269.00	XXX.XXX
270.00	XXX.XXX
271.00	XXX.XXX
272.00	XXX.XXX
273.00	XXX.XXX
274.00	XXX.XXX
275.00	XXX.XXX
276.00	XXX.XXX
277.00	XXX.XXX
278.00	XXX.XXX
279.00	XXX.XXX
280.00	XXX.XXX
281.00	XXX.XXX
282.00	XXX.XXX
283.00	XXX.XXX
284.00	XXX.XXX
285.00	XXX.XXX
286.00	XXX.XXX
287.00	XXX.XXX
288.00	XXX.XXX
289.00	XXX.XXX
290.00	XXX.XXX
291.00	XXX.XXX
292.00	XXX.XXX
293.00	XXX.XXX
294.00	XXX.XXX
295.00	XXX.XXX
296.00	XXX.XXX
297.00	XXX.XXX
298.00	XXX.XXX
299.00	XXX.XXX
300.00	XXX.XXX
301.00	XXX.XXX
302.00	XXX.XXX
303.00	XXX.XXX
304.00	XXX.XXX
305.00	XXX.XXX
306.00	XXX.XXX
307.00	XXX.XXX
308.00	3.913
309.00	3.553
310.00	3.411
311.00	3.174
312.00	3.051
313.00	2.920
314.00	2.798
315.00	2.692
316.00	2.604
317.00	2.507
318.00	2.445
319.00	2.376
320.00	2.317
321.00	2.257
322.00	2.197
323.00	2.146
324.00	2.103
325.00	2.137
326.00	2.098
327.00	2.072
328.00	2.040
329.00	2.010
330.00	1.978
331.00	1.950
332.00	1.922
333.00	1.892
334.00	1.870
335.00	1.852
336.00	1.828
337.00	1.809
338.00	1.787
339.00	1.758
340.00	1.734
341.00	1.715
342.00	1.692
343.00	1.670
344.00	1.643
345.00	1.617
346.00	1.590
347.00	1.560
348.00	1.527
349.00	1.498
350.00	1.471
351.00	1.437
352.00	1.408
353.00	1.371
354.00	1.342
355.00	1.309
356.00	1.279
357.00	1.249
358.00	1.221
359.00	1.191
360.00	1.165
361.00	1.144
362.00	1.125
363.00	1.101
364.00	1.084
365.00	1.067
366.00	1.053
367.00	1.038
368.00	1.024
369.00	1.011
370.00	0.998
371.00	0.991
372.00	0.980
373.00	0.971
374.00	0.963
375.00	0.955
376.00	0.951
377.00	0.941
378.00	0.936
379.00	0.927
380.00	0.918
381.00	0.913
382.00	0.907
383.00	0.898
384.00	0.891
385.00	0.885
386.00	0.878
387.00	0.870
388.00	0.868
389.00	0.861
390.00	0.855
391.00	0.849
392.00	0.843
393.00	0.840
394.00	0.831
395.00	0.825
396.00	0.820
397.00	0.814
398.00	0.809
399.00	0.805
400.00	0.801
401.00	0.794
402.00	0.788
403.00	0.785
404.00	0.780
405.00	0.775
406.00	0.769
407.00	0.766
408.00	0.760
409.00	0.756
410.00	0.748
411.00	0.744
412.00	0.731
413.00	0.726
414.00	0.719
415.00	0.716
416.00	0.709
417.00	0.706
418.00	0.702
419.00	0.694
420.00	0.693
421.00	0.686
422.00	0.682
423.00	0.679
424.00	0.674
425.00	0.667
426.00	0.662
427.00	0.660
428.00	0.653
429.00	0.650
430.00	0.645
431.00	0.639
432.00	0.634
433.00	0.631
434.00	0.626
435.00	0.619
436.00	0.616
437.00	0.610
438.00	0.605
439.00	0.599
440.00	0.596
441.00	0.590
442.00	0.584
443.00	0.582
444.00	0.576
445.00	0.570
446.00	0.564
447.00	0.562
448.00	0.556
449.00	0.554
450.00	0.547
451.00	0.544
452.00	0.536
453.00	0.531
454.00	0.527
455.00	0.523
456.00	0.519
457.00	0.515
458.00	0.510
459.00	0.502
460.00	0.498
461.00	0.494
462.00	0.489
463.00	0.484
464.00	0.478
465.00	0.473
466.00	0.470
467.00	0.467
468.00	0.463
469.00	0.456
470.00	0.451
471.00	0.449
472.00	0.442
473.00	0.440
474.00	0.434
475.00	0.429
476.00	0.427
477.00	0.421
478.00	0.418
479.00	0.416
480.00	0.412
481.00	0.407
482.00	0.403
483.00	0.400
484.00	0.398
485.00	0.395
486.00	0.392
487.00	0.387
488.00	0.385
489.00	0.381
490.00	0.378
491.00	0.376
492.00	0.371
493.00	0.370
494.00	0.365
495.00	0.362
496.00	0.361
497.00	0.358
498.00	0.356
499.00	0.352
500.00	0.349
501.00	0.346
502.00	0.344
503.00	0.341
504.00	0.337
505.00	0.334
506.00	0.333
507.00	0.330
508.00	0.327
509.00	0.325
510.00	0.321
511.00	0.322
512.00	0.322
513.00	0.318
514.00	0.317
515.00	0.315
516.00	0.312
517.00	0.311
518.00	0.307
519.00	0.306
520.00	0.303
521.00	0.299
522.00	0.297
523.00	0.295
524.00	0.293
525.00	0.291
526.00	0.289
527.00	0.287
528.00	0.285
529.00	0.281
530.00	0.279
531.00	0.277
532.00	0.274
533.00	0.274
534.00	0.270
535.00	0.264
536.00	0.264
537.00	0.263
538.00	0.259
539.00	0.258
540.00	0.255
541.00	0.250
542.00	0.248
543.00	0.247
544.00	0.244
545.00	0.243
546.00	0.242
547.00	0.238
548.00	0.238
549.00	0.233
550.00	0.233
551.00	0.231
552.00	0.228
553.00	0.224
554.00	0.222
555.00	0.220
556.00	0.218
557.00	0.217
558.00	0.217
559.00	0.212
560.00	0.211
561.00	0.209
562.00	0.207
563.00	0.204
564.00	0.203
565.00	0.200
566.00	0.198
567.00	0.199
568.00	0.198
569.00	0.194
570.00	0.195
571.00	0.189
572.00	0.189
573.00	0.187
574.00	0.185
575.00	0.184
576.00	0.179
577.00	0.180
578.00	0.178
579.00	0.178
580.00	0.178
581.00	0.174
582.00	0.174
583.00	0.169
584.00	0.169
585.00	0.168
586.00	0.169
587.00	0.165
588.00	0.165
589.00	0.162
590.00	0.163
591.00	0.161
592.00	0.161
593.00	0.157
594.00	0.156
595.00	0.154
596.00	0.153
597.00	0.156
598.00	0.152
599.00	0.153
600.00	0.149
601.00	0.147
602.00	0.146
603.00	0.145
604.00	0.142
605.00	0.142
606.00	0.142
607.00	0.140
608.00	0.140
609.00	0.137
610.00	0.139
611.00	0.135
612.00	0.134
613.00	0.135
614.00	0.130
615.00	0.132
616.00	0.131
617.00	0.130
618.00	0.131
619.00	0.126
620.00	0.128
621.00	0.125
622.00	0.124
623.00	0.124
624.00	0.124
625.00	0.122
626.00	0.121
627.00	0.121
628.00	0.118
629.00	0.117
630.00	0.116
631.00	0.118
632.00	0.118
633.00	0.117
634.00	0.114
635.00	0.113
636.00	0.114
637.00	0.109
638.00	0.111
639.00	0.113
640.00	0.109
641.00	0.109
642.00	0.108
643.00	0.107
644.00	0.105
645.00	0.106
646.00	0.106
647.00	0.104
648.00	0.104
649.00	0.101
650.00	0.102
651.00	0.100
652.00	0.101
653.00	0.101
654.00	0.100
655.00	0.101
656.00	0.100
657.00	0.097
658.00	0.097
659.00	0.099
660.00	0.098
661.00	0.095
662.00	0.095
663.00	0.098
664.00	0.094
665.00	0.096
666.00	0.094
667.00	0.091
668.00	0.091
669.00	0.092
670.00	0.093
671.00	0.090
672.00	0.090
673.00	0.088
674.00	0.087
675.00	0.087
676.00	0.090
677.00	0.086
678.00	0.087
679.00	0.086
680.00	0.085
681.00	0.085
682.00	0.089
683.00	0.087
684.00	0.084
685.00	0.085
686.00	0.086
687.00	0.086
688.00	0.087
689.00	0.084
690.00	0.087
691.00	0.083
692.00	0.083
693.00	0.083
694.00	0.080
695.00	0.081
696.00	0.081
697.00	0.081
698.00	0.080
699.00	0.080
700.00	0.078
701.00	0.074
702.00	0.075
703.00	0.075
704.00	0.075
705.00	0.071
706.00	0.071
707.00	0.071
708.00	0.070
709.00	0.068
710.00	0.066
711.00	0.066
712.00	0.067
713.00	0.065
714.00	0.065
715.00	0.063
716.00	0.063
717.00	0.064
718.00	0.064
719.00	0.061
720.00	0.061
721.00	0.062
722.00	0.059
723.00	0.060
724.00	0.060
725.00	0.061
726.00	0.059
727.00	0.059
728.00	0.056
729.00	0.058
730.00	0.057
731.00	0.057
732.00	0.056
733.00	0.057
734.00	0.057
735.00	0.057
736.00	0.054
737.00	0.052
738.00	0.058
739.00	0.056
740.00	0.056
741.00	0.056
742.00	0.053
743.00	0.053
744.00	0.054
745.00	0.053
746.00	0.053
747.00	0.055
748.00	0.052
749.00	0.052
750.00	0.050
751.00	0.052
752.00	0.050
753.00	0.051
754.00	0.049
755.00	0.051
756.00	0.050
757.00	0.048
758.00	0.049
759.00	0.050
760.00	0.049
761.00	0.049
762.00	0.047
763.00	0.049
764.00	0.048
765.00	0.048
766.00	0.049
767.00	0.048
768.00	0.049
769.00	0.046
770.00	0.047
771.00	0.048
772.00	0.047
773.00	0.045
774.00	0.049
775.00	0.046
776.00	0.047
777.00	0.045
778.00	0.048
779.00	0.045
780.00	0.044
781.00	0.043
782.00	0.045
783.00	0.044
784.00	0.043
785.00	0.045
786.00	0.045
787.00	0.044
788.00	0.041
789.00	0.043
790.00	0.042
791.00	0.042
792.00	0.044
793.00	0.039
794.00	0.040
795.00	0.043
796.00	0.040
797.00	0.038
798.00	0.042
799.00	0.040
800.00	0.036